<?xml version="1.0" encoding="UTF-8"?>

<Bundle xmlns="http://hl7.org/fhir">
  <id value="CaresSubmitLaborderBundleExample"/>
  <type value="transaction"/>
  <entry>
    <fullUrl value="Task/LabOrderTaskExample"/>
    <resource>
      <Task>
        <id value="LabOrderTaskExample"/>
        <meta>
          <profile value="https://openhie.github.io/cares-covid-ig/StructureDefinition/covid19-lab-task"/>
        </meta>
        <text>
          <status value="generated"/><div xmlns="http://www.w3.org/1999/xhtml"><p><b>Generated Narrative: Task</b><a name="LabOrderTaskExample"> </a></p><div style="display: inline-block; background-color: #d9e0e7; padding: 6px; margin: 4px; border: 1px solid #8da1b4; border-radius: 5px; line-height: 60%"><p style="margin-bottom: 0px">Resource Task &quot;LabOrderTaskExample&quot; </p><p style="margin-bottom: 0px">Profile: <a href="StructureDefinition-covid19-lab-task.html">Covid19 Lab Task</a></p></div><p><b>identifier</b>: id: ORDER12345</p><p><b>basedOn</b>: <a href="#ServiceRequest_Covid19ServiceRequestExample">See above (ServiceRequest/Covid19ServiceRequestExample)</a></p><p><b>status</b>: requested</p><p><b>intent</b>: order</p><p><b>executionPeriod</b>: 2022-07-28 --&gt; (ongoing)</p><p><b>lastModified</b>: 2022-07-28</p><p><b>requester</b>: <a href="Organization-Covid19OrganizationExample.html">Organization/Covid19OrganizationExample</a> &quot;Covid19 Organization&quot;</p><p><b>owner</b>: <a href="Organization-Covid19OrganizationExample.html">Organization/Covid19OrganizationExample</a> &quot;Covid19 Organization&quot;</p></div>
        </text>
        <identifier>
          <system value="http://openhie.org/fhir/covid19-casereporting/lab-integration/test-order-number"/>
          <value value="ORDER12345"/>
        </identifier>
        <basedOn>
          <reference value="ServiceRequest/Covid19ServiceRequestExample"/>
        </basedOn>
        <status value="requested"/>
        <intent value="order"/>
        <executionPeriod>
          <start value="2022-07-28"/>
        </executionPeriod>
        <lastModified value="2022-07-28"/>
        <requester>
          <reference value="Organization/Covid19OrganizationExample"/>
        </requester>
        <owner>
          <reference value="Organization/Covid19OrganizationExample"/>
        </owner>
      </Task>
    </resource>
    <request>
      <method value="PUT"/>
      <url value="Task/LabOrderTaskExample"/>
    </request>
  </entry>
  <entry>
    <fullUrl value="Location/Covid19ServiceRequestLocationExample"/>
    <resource>
      <Location>
        <id value="Covid19ServiceRequestLocationExample"/>
        <meta>
          <profile value="https://openhie.github.io/cares-covid-ig/StructureDefinition/covid19-service-request-location"/>
        </meta>
        <text>
          <status value="generated"/><div xmlns="http://www.w3.org/1999/xhtml"><p><b>Generated Narrative: Location</b><a name="Covid19ServiceRequestLocationExample"> </a></p><div style="display: inline-block; background-color: #d9e0e7; padding: 6px; margin: 4px; border: 1px solid #8da1b4; border-radius: 5px; line-height: 60%"><p style="margin-bottom: 0px">Resource Location &quot;Covid19ServiceRequestLocationExample&quot; </p><p style="margin-bottom: 0px">Profile: <a href="StructureDefinition-covid19-service-request-location.html">Covid19 Service Request Location</a></p></div><p><b>name</b>: Covid19 Location</p><p><b>address</b>: Cares city 1 Cares state 1 Cares country 1 </p></div>
        </text>
        <name value="Covid19 Location"/>
        <address>
          <city value="Cares city 1"/>
          <district value="Cares district 1"/>
          <state value="Cares state 1"/>
          <country value="Cares country 1"/>
        </address>
      </Location>
    </resource>
    <request>
      <method value="PUT"/>
      <url value="Location/Covid19ServiceRequestLocationExample"/>
    </request>
  </entry>
  <entry>
    <fullUrl value="ServiceRequest/Covid19ServiceRequestExample"/>
    <resource>
      <ServiceRequest>
        <id value="Covid19ServiceRequestExample"/>
        <meta>
          <profile value="https://openhie.github.io/cares-covid-ig/StructureDefinition/covid19-lab-order"/>
        </meta>
        <text>
          <status value="generated"/><div xmlns="http://www.w3.org/1999/xhtml"><p><b>Generated Narrative: ServiceRequest</b><a name="Covid19ServiceRequestExample"> </a></p><div style="display: inline-block; background-color: #d9e0e7; padding: 6px; margin: 4px; border: 1px solid #8da1b4; border-radius: 5px; line-height: 60%"><p style="margin-bottom: 0px">Resource ServiceRequest &quot;Covid19ServiceRequestExample&quot; </p><p style="margin-bottom: 0px">Profile: <a href="StructureDefinition-covid19-lab-order.html">Covid19 Lab Order</a></p></div><p><b>identifier</b>: id: ORDER12345</p><p><b>status</b>: completed</p><p><b>intent</b>: order</p><p><b>doNotPerform</b>: false</p><p><b>code</b>: SARS-CoV-2 (COVID-19) Ag [Presence] in Respiratory specimen by Rapid immunoassay <span style="background: LightGoldenRodYellow; margin: 4px; border: 1px solid khaki"> (<a href="https://loinc.org/">LOINC</a>#94558-4)</span></p><p><b>subject</b>: <a href="Patient-Covid19PatientExample.html">Patient/Covid19PatientExample</a> &quot; SMITH&quot;</p><p><b>encounter</b>: <a href="Encounter-Covid19AssessmentEncounterExample.html">Encounter/Covid19AssessmentEncounterExample</a></p><p><b>occurrence</b>: 2012-01-05</p><p><b>requester</b>: <a href="#Practitioner_PractitionerExample">See above (Practitioner/PractitionerExample)</a></p><p><b>locationReference</b>: <a href="#Location_Covid19ServiceRequestLocationExample">See above (Location/Covid19ServiceRequestLocationExample)</a></p><p><b>reasonCode</b>: Equipment error/failure (finding) <span style="background: LightGoldenRodYellow; margin: 4px; border: 1px solid khaki"> (<a href="https://browser.ihtsdotools.org/">SNOMED CT</a>#397933008)</span></p><p><b>specimen</b>: <a href="#Specimen_Covid19SpecimenExample">See above (Specimen/Covid19SpecimenExample)</a></p><p><b>note</b>: additional notes here (By Organization/Covid19OrganizationExample @Feb 7, 2015, 6:28:17 PM)</p></div>
        </text>
        <identifier>
          <system value="http://covid19laborder.org/order"/>
          <value value="ORDER12345"/>
        </identifier>
        <status value="completed"/>
        <intent value="order"/>
        <doNotPerform value="false"/>
        <code>
          <coding>
            <system value="http://loinc.org"/>
            <code value="94558-4"/>
          </coding>
        </code>
        <subject>
          <reference value="Patient/Covid19PatientExample"/>
        </subject>
        <encounter>
          <reference value="Encounter/Covid19AssessmentEncounterExample"/>
        </encounter>
        <occurrenceDateTime value="2012-01-05"/>
        <requester>
          <reference value="Practitioner/PractitionerExample"/>
        </requester>
        <locationReference>
          <reference value="Location/Covid19ServiceRequestLocationExample"/>
        </locationReference>
        <reasonCode>
          <coding>
            <system value="http://snomed.info/sct"/>
            <code value="397933008"/>
          </coding>
        </reasonCode>
        <specimen>
          <reference value="Specimen/Covid19SpecimenExample"/>
        </specimen>
        <note>
          <authorReference>
            <reference value="Organization/Covid19OrganizationExample"/>
          </authorReference>
          <time value="2015-02-07T13:28:17-05:00"/>
          <text value="additional notes here"/>
        </note>
      </ServiceRequest>
    </resource>
    <request>
      <method value="PUT"/>
      <url value="ServiceRequest/Covid19ServiceRequestExample"/>
    </request>
  </entry>
  <entry>
    <fullUrl value="Practitioner/PractitionerExample"/>
    <resource>
      <Practitioner>
        <id value="PractitionerExample"/>
        <meta>
          <profile value="https://openhie.github.io/cares-covid-ig/StructureDefinition/covid19-practitioner"/>
        </meta>
        <text>
          <status value="generated"/><div xmlns="http://www.w3.org/1999/xhtml"><p><b>Generated Narrative: Practitioner</b><a name="PractitionerExample"> </a></p><div style="display: inline-block; background-color: #d9e0e7; padding: 6px; margin: 4px; border: 1px solid #8da1b4; border-radius: 5px; line-height: 60%"><p style="margin-bottom: 0px">Resource Practitioner &quot;PractitionerExample&quot; </p><p style="margin-bottom: 0px">Profile: <a href="StructureDefinition-covid19-practitioner.html">Covid19 Practitioner</a></p></div><p><b>name</b>: James Smith </p><p><b>telecom</b>: ph: 27537652509</p></div>
        </text>
        <name>
          <family value="Smith"/>
          <given value="James"/>
        </name>
        <telecom>
          <system value="phone"/>
          <value value="27537652509"/>
        </telecom>
      </Practitioner>
    </resource>
    <request>
      <method value="PUT"/>
      <url value="Practitioner/PractitionerExample"/>
    </request>
  </entry>
  <entry>
    <fullUrl value="Specimen/Covid19SpecimenExample"/>
    <resource>
      <Specimen>
        <id value="Covid19SpecimenExample"/>
        <meta>
          <profile value="https://openhie.github.io/cares-covid-ig/StructureDefinition/covid19-specimen"/>
        </meta>
        <text>
          <status value="generated"/><div xmlns="http://www.w3.org/1999/xhtml"><p><b>Generated Narrative: Specimen</b><a name="Covid19SpecimenExample"> </a></p><div style="display: inline-block; background-color: #d9e0e7; padding: 6px; margin: 4px; border: 1px solid #8da1b4; border-radius: 5px; line-height: 60%"><p style="margin-bottom: 0px">Resource Specimen &quot;Covid19SpecimenExample&quot; </p><p style="margin-bottom: 0px">Profile: <a href="StructureDefinition-covid19-specimen.html">Covid19 Specimen</a></p></div><p><b>identifier</b>: id: SPECIMEN109191879</p><p><b>type</b>: Nasopharyngeal swab <span style="background: LightGoldenRodYellow; margin: 4px; border: 1px solid khaki"> (<a href="https://browser.ihtsdotools.org/">SNOMED CT</a>#258500001)</span></p><p><b>subject</b>: <a href="Patient-Covid19PatientExample.html">Patient/Covid19PatientExample</a> &quot; SMITH&quot;</p><h3>Collections</h3><table class="grid"><tr><td>-</td><td><b>Collected[x]</b></td></tr><tr><td>*</td><td>2022-07-28</td></tr></table><p><b>note</b>: additional notes here (By Organization/Covid19OrganizationExample @Feb 7, 2015, 6:28:17 PM)</p></div>
        </text>
        <identifier>
          <system value="http://covid19laborder.org/specimen"/>
          <value value="SPECIMEN109191879"/>
        </identifier>
        <type>
          <coding>
            <system value="http://snomed.info/sct"/>
            <code value="258500001"/>
          </coding>
        </type>
        <subject>
          <reference value="Patient/Covid19PatientExample"/>
        </subject>
        <collection>
          <collectedDateTime value="2022-07-28"/>
        </collection>
        <note>
          <authorReference>
            <reference value="Organization/Covid19OrganizationExample"/>
          </authorReference>
          <time value="2015-02-07T13:28:17-05:00"/>
          <text value="additional notes here"/>
        </note>
      </Specimen>
    </resource>
    <request>
      <method value="PUT"/>
      <url value="Specimen/Covid19SpecimenExample"/>
    </request>
  </entry>
</Bundle>